Folder: IRIntCopy/CSVs/190606_AuNP_PDMS_1

Note: readme.md
# IR CSV Kinetics Extractor

![spectra](exports\laser-loading-time-spectra.png "Lased PDMS: loading vs time spectra")

![scatter](exports\laser-loading-time-scatterfit.jpg "Lased PDMS: loading vs time scatterfit")

## to use:
- format CSVs in input folder as follows: "cure-condition_agent-loading_time-in-s.csv", e.g. "laser-15W/cm2_5e-3-CB_20.csv"

## General Graphing
- Spectra (raw)
- Spectra (corrected)
- Peak integrations vs time bar chart
- Si-H integration vs time kinetics-fit scatterplot

## To-do
 - confirm refactor usability
 - standardize the input csv convention (working version: "condition_time-in-s.csv", e.g. "5e-3_20.csv")
 - procedurally check for conditions
  - cure (ambient, laser, oven) and photothermal agent (none, AuNP, CB)
 - replace color maps with condition conventions listed below
 - separate steps 
    - script 1: consolidate csv folder into a single csv with raw spectra, normalized spectra, and peak integrations and show plots
    - script 2: fit Si-H integrations from above dataframe to a A_t = A_0 e^(-kt) + C kinetic model, show plot, and export to csv

### Graph formatting conditions (WiP):
Cure condition
- ambient
  - gray (#FFA500) hollow cirlce 
- laser
  - red (#FF0000) hollow diamond
- oven
  - blue (#1AA7EC) hollow square

Photothermal agent
- no-agent
  - white (#FFFFFF) filled, outlined circle
- AuNP
  - yellow (#FFFF00) hollow triangle
- CB
  - black (#000000) hollow circle

Higher loading and temperatures --> darker (value? sat?), lightness floor at 0.25 (?)

  ### JS implementation considerations
- GUI (input file directory, graphs, wavenumber bounds, checkbox for included plot types and export)
    - directory fields (1: CSV folder, 2: output folder)
    - number field: controls to average over
    - checkboxes: Graphs (1: line, 2: bar), Bands (if bar selection, select all wanted to create)
    - buttons: 1: Run, 2: Export results CSV

### Considerations:
 - Resource: J Hofman's 2016 "IR Spectroscopic Method for Determiation of Silicone Cross-Linking"
 - Modified normalization for CB because of the Si-O-Si dependence on CB content

### Libraries:
os
glob
numpy
pandas
matplotlib.pyplot
simps

File: 00_AuPDMS_00min.csv
Created as New Dataset,Sample 156 By irlear Date Wednesday, June 05 2019
cm-1,%T
4000.00,79.34
3987.50,79.89
3975.00,80.43
3962.50,80.92
3950.00,81.21
3937.50,81.44
3925.00,81.55
3912.50,81.37
3900.00,80.93
3887.50,80.60
3875.00,80.29
3862.50,79.51
3850.00,77.30
3837.50,74.03
3825.00,72.23
3812.50,71.00
3800.00,68.74
3787.50,64.90
3775.00,60.08
3762.50,57.65
3750.00,58.31
3737.50,60.62
3725.00,57.36
3712.50,52.06
3700.00,48.09
3687.50,50.76
3675.00,51.32
3662.50,48.01
3650.00,43.54
3637.50,42.80
3625.00,44.53
3612.50,44.27
3600.00,42.88
3587.50,41.79
3575.00,42.79
3562.50,43.83
3550.00,44.09
3537.50,43.82
3525.00,43.54
3512.50,43.54
3500.00,43.78
3487.50,44.06
3475.00,44.46
3462.50,44.94
3450.00,45.55
3437.50,46.31
3425.00,46.92
3412.50,47.66
3400.00,48.43
3387.50,49.23
3375.00,50.09
3362.50,50.90
3350.00,51.83
3337.50,52.88
3325.00,53.95
3312.50,55.08
3300.00,56.12
3287.50,56.99
3275.00,57.69
3262.50,58.18
3250.00,58.55
3237.50,58.78
3225.00,58.90
3212.50,59.07
3200.00,58.96
3187.50,58.31
3175.00,58.73
3162.50,58.11
3150.00,56.48
3137.50,53.74
3125.00,50.00
3112.50,47.45
3100.00,47.09
3087.50,46.89
3075.00,45.30
3062.50,40.28
3050.00,35.75
3037.50,41.73
3025.00,39.74
3012.50,33.40
3000.00,24.11
2987.50,6.86
2975.00,-0.00
2962.50,0.05
2950.00,0.06
2937.50,6.41
2925.00,14.57
2912.50,6.69
2900.00,4.14
2887.50,20.93
2875.00,34.04
2862.50,42.02
2850.00,44.65
2837.50,46.18
2825.00,48.45
2812.50,47.25
2800.00,48.00
2787.50,54.49
2775.00,67.12
2762.50,73.79
2750.00,76.95
2737.50,78.87
2725.00,79.91
2712.50,79.87
2700.00,80.20
2687.50,80.30
2675.00,77.95
2662.50,75.20
2650.00,78.33
2637.50,82.43
2625.00,84.25
2612.50,85.14
2600.00,85.62
2587.50,85.87
2575.00,86.06
2562.50,86.14
2550.00,86.09
2537.50,85.90
2525.00,85.16
2512.50,83.16
2500.00,74.94
2487.50,81.54
2475.00,84.94
2462.50,85.80
2450.00,86.16
2437.50,86.29
2425.00,86.32
2412.50,86.28
2400.00,86.21
2387.50,86.10
2375.00,85.86
2362.50,85.68
2350.00,85.39
2337.50,85.10
2325.00,84.80
2312.50,84.29
2300.00,83.61
2287.50,82.60
2275.00,81.41
2262.50,80.88
2250.00,80.01
2237.50,78.36
2225.00,75.33
2212.50,70.40
2200.00,61.16
2187.50,44.28
2175.00,23.81
2162.50,15.72
2150.00,23.91
2137.50,44.66
2125.00,61.02
2112.50,67.93
2100.00,70.79
2087.50,71.82
2075.00,71.25
2062.50,69.30
2050.00,67.70
2037.50,73.93
2025.00,74.96
2012.50,71.37
2000.00,68.49
1987.50,67.89
1975.00,62.36
1962.50,54.20
1950.00,47.56
1937.50,49.07
1925.00,56.97
1912.50,61.00
1900.00,64.86
1887.50,64.94
1875.00,64.47
1862.50,64.28
1850.00,63.91
1837.50,64.32
1825.00,63.04
1812.50,60.52
1800.00,57.03
1787.50,54.05
1775.00,52.87
1762.50,53.23
1750.00,53.72
1737.50,52.95
1725.00,51.20
1712.50,50.35
1700.00,49.57
1687.50,47.74
1675.00,45.81
1662.50,42.90
1650.00,40.13
1637.50,38.11
1625.00,35.93
1612.50,34.09
1600.00,30.75
1587.50,36.16
1575.00,39.99
1562.50,42.16
1550.00,42.80
1537.50,42.36
1525.00,41.96
1512.50,42.03
1500.00,41.74
1487.50,37.40
1475.00,34.58
1462.50,24.95
1450.00,12.06
1437.50,14.03
1425.00,9.33
1412.50,0.88
1400.00,2.33
1387.50,15.31
1375.00,22.74
1362.50,26.35
1350.00,27.19
1337.50,26.66
1325.00,22.87
1312.50,15.95
1300.00,8.93
1287.50,2.54
1275.00,0.02
1262.50,0.00
1250.00,0.00
1237.50,0.39
1225.00,0.46
1212.50,0.04
1200.00,0.00
1187.50,0.01
1175.00,0.01
1162.50,0.01
1150.00,0.00
1137.50,0.01
1125.00,0.00
1112.50,0.01
1100.00,0.01
1087.50,0.00
1075.00,0.00
1062.50,0.01
1050.00,0.01
1037.50,0.00
1025.00,0.00
1012.50,0.00
1000.00,0.00
987.50,0.04
975.00,0.82
962.50,2.21
950.00,4.37
937.50,5.58
925.00,2.26
912.50,0.27
900.00,0.29
887.50,0.00
875.00,0.01
862.50,0.01
850.00,0.00
837.50,0.01
825.00,0.01
812.50,0.00
800.00,0.00
787.50,0.00
775.00,0.01
762.50,0.00
750.00,0.12
737.50,1.88
725.00,2.54
712.50,0.72
700.00,0.11
687.50,0.12
675.00,0.93
662.50,0.79
650.00,10.38
637.50,8.74
625.00,7.38
612.50,7.57
600.00,2.37
587.50,3.10
575.00,0.98
562.50,0.57
550.00,0.41
537.50,0.25
525.00,0.17
512.50,0.11
500.00,0.07
487.50,0.04
475.00,0.05
462.50,0.12
450.00,0.12
437.50,0.15
425.00,0.33
412.50,0.17
400.00,1.18

File: 02_AuPDMS_02min.csv
Created as New Dataset,Sample 159 By irlear Date Thursday, June 06 2019
cm-1,%T
4000.00,79.21
3987.50,79.76
3975.00,80.29
3962.50,80.75
3950.00,81.04
3937.50,81.26
3925.00,81.35
3912.50,81.19
3900.00,80.76
3887.50,80.40
3875.00,80.09
3862.50,79.38
3850.00,77.24
3837.50,73.98
3825.00,72.24
3812.50,70.98
3800.00,68.76
3787.50,64.94
3775.00,60.20
3762.50,57.79
3750.00,58.53
3737.50,60.67
3725.00,57.37
3712.50,52.10
3700.00,48.05
3687.50,50.71
3675.00,51.31
3662.50,48.15
3650.00,43.91
3637.50,43.27
3625.00,45.11
3612.50,44.96
3600.00,43.67
3587.50,42.66
3575.00,43.80
3562.50,44.97
3550.00,45.35
3537.50,45.18
3525.00,45.01
3512.50,45.11
3500.00,45.43
3487.50,45.81
3475.00,46.26
3462.50,46.83
3450.00,47.49
3437.50,48.29
3425.00,48.96
3412.50,49.68
3400.00,50.49
3387.50,51.25
3375.00,52.07
3362.50,52.84
3350.00,53.65
3337.50,54.67
3325.00,55.63
3312.50,56.70
3300.00,57.68
3287.50,58.44
3275.00,59.12
3262.50,59.51
3250.00,59.81
3237.50,59.98
3225.00,59.98
3212.50,60.09
3200.00,59.88
3187.50,59.15
3175.00,59.49
3162.50,58.76
3150.00,57.08
3137.50,54.26
3125.00,50.43
3112.50,47.81
3100.00,47.29
3087.50,46.95
3075.00,45.26
3062.50,40.33
3050.00,35.93
3037.50,41.65
3025.00,39.72
3012.50,33.45
3000.00,24.09
2987.50,6.89
2975.00,-0.00
2962.50,0.05
2950.00,0.07
2937.50,6.46
2925.00,14.53
2912.50,6.68
2900.00,4.20
2887.50,20.75
2875.00,33.65
2862.50,41.80
2850.00,44.53
2837.50,46.14
2825.00,48.40
2812.50,47.26
2800.00,48.00
2787.50,54.49
2775.00,67.00
2762.50,73.60
2750.00,76.75
2737.50,78.67
2725.00,79.69
2712.50,79.71
2700.00,80.03
2687.50,80.12
2675.00,77.85
2662.50,75.16
2650.00,78.26
2637.50,82.25
2625.00,84.05
2612.50,84.95
2600.00,85.40
2587.50,85.68
2575.00,85.86
2562.50,85.95
2550.00,85.90
2537.50,85.70
2525.00,84.99
2512.50,83.00
2500.00,74.94
2487.50,81.46
2475.00,84.78
2462.50,85.64
2450.00,85.99
2437.50,86.13
2425.00,86.17
2412.50,86.13
2400.00,86.06
2387.50,85.95
2375.00,85.72
2362.50,85.57
2350.00,85.30
2337.50,84.92
2325.00,84.70
2312.50,84.21
2300.00,83.56
2287.50,82.55
2275.00,81.40
2262.50,80.88
2250.00,80.03
2237.50,78.44
2225.00,75.49
2212.50,70.77
2200.00,61.90
2187.50,45.57
2175.00,25.18
2162.50,16.70
2150.00,24.73
2137.50,45.25
2125.00,61.32
2112.50,68.11
2100.00,70.90
2087.50,71.91
2075.00,71.37
2062.50,69.40
2050.00,67.88
2037.50,73.95
2025.00,74.97
2012.50,71.46
2000.00,68.57
1987.50,67.97
1975.00,62.45
1962.50,54.39
1950.00,47.82
1937.50,49.37
1925.00,57.16
1912.50,61.11
1900.00,64.91
1887.50,65.02
1875.00,64.51
1862.50,64.39
1850.00,63.95
1837.50,64.37
1825.00,63.10
1812.50,60.56
1800.00,57.16
1787.50,54.16
1775.00,53.00
1762.50,53.38
1750.00,53.83
1737.50,53.15
1725.00,51.37
1712.50,50.59
1700.00,49.88
1687.50,48.09
1675.00,46.30
1662.50,43.40
1650.00,40.68
1637.50,38.60
1625.00,36.39
1612.50,34.47
1600.00,31.22
1587.50,36.46
1575.00,40.22
1562.50,42.37
1550.00,42.94
1537.50,42.54
1525.00,42.14
1512.50,42.19
1500.00,41.92
1487.50,37.56
1475.00,34.79
1462.50,25.19
1450.00,12.39
1437.50,14.33
1425.00,9.48
1412.50,0.95
1400.00,2.47
1387.50,15.47
1375.00,22.89
1362.50,26.46
1350.00,27.30
1337.50,26.72
1325.00,22.93
1312.50,16.00
1300.00,8.94
1287.50,2.54
1275.00,0.01
1262.50,0.00
1250.00,0.01
1237.50,0.39
1225.00,0.48
1212.50,0.05
1200.00,0.01
1187.50,0.01
1175.00,0.00
1162.50,0.00
1150.00,0.01
1137.50,0.00
1125.00,0.01
1112.50,0.01
1100.00,0.01
1087.50,0.01
1075.00,0.01
1062.50,0.01
1050.00,0.01
1037.50,0.00
1025.00,0.00
1012.50,0.01
1000.00,0.01
987.50,0.04
975.00,0.81
962.50,2.25
950.00,4.41
937.50,5.65
925.00,2.36
912.50,0.29
900.00,0.30
887.50,0.00
875.00,0.01
862.50,0.01
850.00,0.00
837.50,0.00
825.00,0.01
812.50,0.01
800.00,0.01
787.50,0.01
775.00,0.01
762.50,0.00
750.00,0.13
737.50,1.86
725.00,2.52
712.50,0.75
700.00,0.11
687.50,0.13
675.00,0.97
662.50,0.82
650.00,10.44
637.50,8.94
625.00,7.59
612.50,7.70
600.00,2.47
587.50,3.20
575.00,1.00
562.50,0.61
550.00,0.44
537.50,0.29
525.00,0.15
512.50,0.09
500.00,0.06
487.50,0.13
475.00,0.05
462.50,0.03
450.00,0.10
437.50,0.02
425.00,0.12
412.50,0.18
400.00,0.37

File: 03_AuPDMS_03min.csv
Created as New Dataset,Sample 160 By irlear Date Thursday, June 06 2019
cm-1,%T
4000.00,79.27
3987.50,79.81
3975.00,80.34
3962.50,80.82
3950.00,81.10
3937.50,81.32
3925.00,81.41
3912.50,81.25
3900.00,80.83
3887.50,80.46
3875.00,80.15
3862.50,79.44
3850.00,77.28
3837.50,74.02
3825.00,72.27
3812.50,71.01
3800.00,68.78
3787.50,64.94
3775.00,60.19
3762.50,57.78
3750.00,58.53
3737.50,60.68
3725.00,57.39
3712.50,52.11
3700.00,48.05
3687.50,50.72
3675.00,51.32
3662.50,48.15
3650.00,43.93
3637.50,43.26
3625.00,45.10
3612.50,44.96
3600.00,43.67
3587.50,42.67
3575.00,43.80
3562.50,44.96
3550.00,45.36
3537.50,45.17
3525.00,45.02
3512.50,45.12
3500.00,45.43
3487.50,45.83
3475.00,46.27
3462.50,46.85
3450.00,47.51
3437.50,48.30
3425.00,49.00
3412.50,49.70
3400.00,50.50
3387.50,51.29
3375.00,52.08
3362.50,52.88
3350.00,53.67
3337.50,54.69
3325.00,55.67
3312.50,56.70
3300.00,57.70
3287.50,58.46
3275.00,59.11
3262.50,59.53
3250.00,59.81
3237.50,60.00
3225.00,59.99
3212.50,60.08
3200.00,59.89
3187.50,59.13
3175.00,59.48
3162.50,58.74
3150.00,57.05
3137.50,54.25
3125.00,50.40
3112.50,47.79
3100.00,47.28
3087.50,46.95
3075.00,45.27
3062.50,40.33
3050.00,35.93
3037.50,41.65
3025.00,39.72
3012.50,33.44
3000.00,24.07
2987.50,6.88
2975.00,-0.01
2962.50,0.05
2950.00,0.06
2937.50,6.44
2925.00,14.49
2912.50,6.66
2900.00,4.18
2887.50,20.72
2875.00,33.63
2862.50,41.80
2850.00,44.52
2837.50,46.12
2825.00,48.39
2812.50,47.23
2800.00,47.98
2787.50,54.47
2775.00,67.01
2762.50,73.63
2750.00,76.77
2737.50,78.71
2725.00,79.72
2712.50,79.74
2700.00,80.07
2687.50,80.15
2675.00,77.88
2662.50,75.17
2650.00,78.28
2637.50,82.29
2625.00,84.08
2612.50,84.99
2600.00,85.44
2587.50,85.72
2575.00,85.90
2562.50,85.98
2550.00,85.95
2537.50,85.74
2525.00,85.02
2512.50,83.03
2500.00,74.94
2487.50,81.47
2475.00,84.81
2462.50,85.67
2450.00,86.03
2437.50,86.16
2425.00,86.21
2412.50,86.16
2400.00,86.09
2387.50,85.99
2375.00,85.75
2362.50,85.61
2350.00,85.33
2337.50,84.94
2325.00,84.73
2312.50,84.24
2300.00,83.59
2287.50,82.57
2275.00,81.42
2262.50,80.90
2250.00,80.05
2237.50,78.46
2225.00,75.51
2212.50,70.77
2200.00,61.89
2187.50,45.54
2175.00,25.14
2162.50,16.67
2150.00,24.69
2137.50,45.21
2125.00,61.30
2112.50,68.10
2100.00,70.91
2087.50,71.90
2075.00,71.37
2062.50,69.39
2050.00,67.85
2037.50,73.96
2025.00,74.97
2012.50,71.46
2000.00,68.55
1987.50,67.95
1975.00,62.43
1962.50,54.35
1950.00,47.77
1937.50,49.31
1925.00,57.12
1912.50,61.09
1900.00,64.88
1887.50,65.01
1875.00,64.49
1862.50,64.35
1850.00,63.95
1837.50,64.34
1825.00,63.08
1812.50,60.52
1800.00,57.12
1787.50,54.12
1775.00,52.95
1762.50,53.33
1750.00,53.78
1737.50,53.10
1725.00,51.33
1712.50,50.53
1700.00,49.85
1687.50,48.05
1675.00,46.26
1662.50,43.37
1650.00,40.64
1637.50,38.56
1625.00,36.35
1612.50,34.42
1600.00,31.17
1587.50,36.41
1575.00,40.19
1562.50,42.33
1550.00,42.89
1537.50,42.49
1525.00,42.10
1512.50,42.15
1500.00,41.87
1487.50,37.52
1475.00,34.73
1462.50,25.13
1450.00,12.32
1437.50,14.27
1425.00,9.44
1412.50,0.93
1400.00,2.44
1387.50,15.42
1375.00,22.85
1362.50,26.41
1350.00,27.25
1337.50,26.68
1325.00,22.89
1312.50,15.97
1300.00,8.92
1287.50,2.53
1275.00,0.01
1262.50,0.00
1250.00,0.00
1237.50,0.39
1225.00,0.47
1212.50,0.04
1200.00,0.00
1187.50,0.01
1175.00,0.01
1162.50,0.01
1150.00,0.01
1137.50,0.00
1125.00,0.00
1112.50,0.01
1100.00,0.01
1087.50,0.00
1075.00,0.01
1062.50,0.00
1050.00,0.01
1037.50,0.02
1025.00,0.01
1012.50,0.01
1000.00,0.01
987.50,0.04
975.00,0.81
962.50,2.24
950.00,4.39
937.50,5.63
925.00,2.35
912.50,0.29
900.00,0.29
887.50,0.01
875.00,0.00
862.50,0.01
850.00,0.01
837.50,0.01
825.00,0.02
812.50,0.02
800.00,0.01
787.50,0.01
775.00,0.01
762.50,0.01
750.00,0.13
737.50,1.87
725.00,2.51
712.50,0.74
700.00,0.12
687.50,0.14
675.00,0.97
662.50,0.84
650.00,10.42
637.50,8.90
625.00,7.54
612.50,7.71
600.00,2.47
587.50,3.16
575.00,1.03
562.50,0.60
550.00,0.42
537.50,0.30
525.00,0.15
512.50,0.16
500.00,0.09
487.50,0.05
475.00,0.07
462.50,0.06
450.00,0.11
437.50,0.18
425.00,0.03
412.50,0.05
400.00,0.11

File: 05_AuPDMS_05min.csv
Created as New Dataset,Sample 162 By irlear Date Thursday, June 06 2019
cm-1,%T
4000.00,79.32
3987.50,79.87
3975.00,80.40
3962.50,80.89
3950.00,81.16
3937.50,81.38
3925.00,81.49
3912.50,81.30
3900.00,80.88
3887.50,80.51
3875.00,80.20
3862.50,79.50
3850.00,77.33
3837.50,74.06
3825.00,72.30
3812.50,71.03
3800.00,68.81
3787.50,64.94
3775.00,60.16
3762.50,57.75
3750.00,58.48
3737.50,60.68
3725.00,57.37
3712.50,52.08
3700.00,48.03
3687.50,50.72
3675.00,51.33
3662.50,48.15
3650.00,43.87
3637.50,43.23
3625.00,45.07
3612.50,44.93
3600.00,43.64
3587.50,42.62
3575.00,43.78
3562.50,44.93
3550.00,45.32
3537.50,45.15
3525.00,44.97
3512.50,45.09
3500.00,45.40
3487.50,45.79
3475.00,46.27
3462.50,46.81
3450.00,47.51
3437.50,48.29
3425.00,48.99
3412.50,49.72
3400.00,50.49
3387.50,51.30
3375.00,52.07
3362.50,52.86
3350.00,53.68
3337.50,54.66
3325.00,55.67
3312.50,56.69
3300.00,57.68
3287.50,58.46
3275.00,59.09
3262.50,59.53
3250.00,59.80
3237.50,59.96
3225.00,59.99
3212.50,60.04
3200.00,59.87
3187.50,59.11
3175.00,59.44
3162.50,58.73
3150.00,57.00
3137.50,54.21
3125.00,50.35
3112.50,47.73
3100.00,47.26
3087.50,46.93
3075.00,45.27
3062.50,40.33
3050.00,35.91
3037.50,41.65
3025.00,39.70
3012.50,33.41
3000.00,24.04
2987.50,6.84
2975.00,-0.00
2962.50,0.05
2950.00,0.06
2937.50,6.40
2925.00,14.44
2912.50,6.61
2900.00,4.14
2887.50,20.64
2875.00,33.56
2862.50,41.75
2850.00,44.48
2837.50,46.06
2825.00,48.34
2812.50,47.17
2800.00,47.92
2787.50,54.41
2775.00,66.98
2762.50,73.65
2750.00,76.79
2737.50,78.72
2725.00,79.75
2712.50,79.75
2700.00,80.09
2687.50,80.16
2675.00,77.88
2662.50,75.16
2650.00,78.27
2637.50,82.32
2625.00,84.11
2612.50,85.02
2600.00,85.49
2587.50,85.74
2575.00,85.94
2562.50,86.02
2550.00,85.98
2537.50,85.78
2525.00,85.05
2512.50,83.05
2500.00,74.92
2487.50,81.49
2475.00,84.84
2462.50,85.70
2450.00,86.06
2437.50,86.19
2425.00,86.23
2412.50,86.19
2400.00,86.12
2387.50,86.01
2375.00,85.74
2362.50,85.55
2350.00,85.27
2337.50,84.90
2325.00,84.68
2312.50,84.20
2300.00,83.57
2287.50,82.57
2275.00,81.42
2262.50,80.91
2250.00,80.05
2237.50,78.46
2225.00,75.51
2212.50,70.76
2200.00,61.86
2187.50,45.47
2175.00,25.07
2162.50,16.61
2150.00,24.63
2137.50,45.14
2125.00,61.27
2112.50,68.06
2100.00,70.89
2087.50,71.88
2075.00,71.33
2062.50,69.36
2050.00,67.78
2037.50,73.94
2025.00,74.95
2012.50,71.43
2000.00,68.53
1987.50,67.90
1975.00,62.40
1962.50,54.26
1950.00,47.67
1937.50,49.22
1925.00,57.05
1912.50,61.06
1900.00,64.84
1887.50,64.95
1875.00,64.45
1862.50,64.28
1850.00,63.91
1837.50,64.29
1825.00,63.04
1812.50,60.48
1800.00,57.05
1787.50,54.07
1775.00,52.88
1762.50,53.28
1750.00,53.72
1737.50,53.02
1725.00,51.28
1712.50,50.45
1700.00,49.79
1687.50,47.99
1675.00,46.19
1662.50,43.31
1650.00,40.56
1637.50,38.51
1625.00,36.27
1612.50,34.35
1600.00,31.08
1587.50,36.33
1575.00,40.11
1562.50,42.25
1550.00,42.84
1537.50,42.42
1525.00,42.04
1512.50,42.09
1500.00,41.80
1487.50,37.44
1475.00,34.65
1462.50,25.04
1450.00,12.23
1437.50,14.18
1425.00,9.38
1412.50,0.92
1400.00,2.41
1387.50,15.36
1375.00,22.76
1362.50,26.35
1350.00,27.18
1337.50,26.62
1325.00,22.83
1312.50,15.91
1300.00,8.88
1287.50,2.51
1275.00,0.02
1262.50,0.00
1250.00,0.00
1237.50,0.38
1225.00,0.46
1212.50,0.03
1200.00,0.01
1187.50,0.00
1175.00,0.01
1162.50,0.01
1150.00,0.01
1137.50,0.00
1125.00,0.00
1112.50,0.00
1100.00,0.00
1087.50,0.01
1075.00,0.01
1062.50,0.02
1050.00,0.01
1037.50,0.00
1025.00,0.01
1012.50,0.00
1000.00,0.00
987.50,0.02
975.00,0.80
962.50,2.22
950.00,4.38
937.50,5.60
925.00,2.33
912.50,0.29
900.00,0.29
887.50,0.01
875.00,0.01
862.50,0.01
850.00,0.00
837.50,0.01
825.00,0.02
812.50,0.02
800.00,0.01
787.50,0.00
775.00,0.01
762.50,0.00
750.00,0.13
737.50,1.87
725.00,2.51
712.50,0.74
700.00,0.11
687.50,0.14
675.00,0.93
662.50,0.82
650.00,10.37
637.50,8.87
625.00,7.49
612.50,7.66
600.00,2.44
587.50,3.16
575.00,1.02
562.50,0.61
550.00,0.41
537.50,0.34
525.00,0.17
512.50,0.16
500.00,0.06
487.50,0.08
475.00,0.05
462.50,0.06
450.00,0.06
437.50,0.06
425.00,0.02
412.50,0.18
400.00,0.37

File: 06_AuPDMS_10min.csv
Created as New Dataset,Sample 163 By irlear Date Thursday, June 06 2019
cm-1,%T
4000.00,79.28
3987.50,79.83
3975.00,80.36
3962.50,80.85
3950.00,81.12
3937.50,81.36
3925.00,81.44
3912.50,81.28
3900.00,80.85
3887.50,80.49
3875.00,80.17
3862.50,79.47
3850.00,77.28
3837.50,73.99
3825.00,72.22
3812.50,70.96
3800.00,68.72
3787.50,64.84
3775.00,60.04
3762.50,57.62
3750.00,58.38
3737.50,60.60
3725.00,57.29
3712.50,52.01
3700.00,47.95
3687.50,50.66
3675.00,51.27
3662.50,48.07
3650.00,43.79
3637.50,43.12
3625.00,44.98
3612.50,44.85
3600.00,43.55
3587.50,42.52
3575.00,43.68
3562.50,44.85
3550.00,45.22
3537.50,45.04
3525.00,44.87
3512.50,44.98
3500.00,45.31
3487.50,45.71
3475.00,46.19
3462.50,46.76
3450.00,47.44
3437.50,48.25
3425.00,48.92
3412.50,49.65
3400.00,50.45
3387.50,51.22
3375.00,52.03
3362.50,52.78
3350.00,53.61
3337.50,54.60
3325.00,55.57
3312.50,56.63
3300.00,57.60
3287.50,58.37
3275.00,59.02
3262.50,59.42
3250.00,59.73
3237.50,59.87
3225.00,59.88
3212.50,59.96
3200.00,59.74
3187.50,59.00
3175.00,59.32
3162.50,58.59
3150.00,56.88
3137.50,54.05
3125.00,50.22
3112.50,47.61
3100.00,47.16
3087.50,46.88
3075.00,45.24
3062.50,40.30
3050.00,35.86
3037.50,41.62
3025.00,39.66
3012.50,33.34
3000.00,23.97
2987.50,6.80
2975.00,-0.01
2962.50,0.05
2950.00,0.06
2937.50,6.34
2925.00,14.35
2912.50,6.53
2900.00,4.07
2887.50,20.54
2875.00,33.47
2862.50,41.68
2850.00,44.38
2837.50,45.95
2825.00,48.23
2812.50,47.06
2800.00,47.79
2787.50,54.28
2775.00,66.93
2762.50,73.59
2750.00,76.77
2737.50,78.69
2725.00,79.74
2712.50,79.73
2700.00,80.05
2687.50,80.15
2675.00,77.81
2662.50,75.08
2650.00,78.22
2637.50,82.28
2625.00,84.11
2612.50,85.00
2600.00,85.48
2587.50,85.75
2575.00,85.93
2562.50,86.02
2550.00,85.96
2537.50,85.77
2525.00,85.04
2512.50,83.03
2500.00,74.85
2487.50,81.44
2475.00,84.83
2462.50,85.69
2450.00,86.05
2437.50,86.19
2425.00,86.22
2412.50,86.18
2400.00,86.11
2387.50,86.00
2375.00,85.76
2362.50,85.60
2350.00,85.33
2337.50,84.92
2325.00,84.74
2312.50,84.23
2300.00,83.58
2287.50,82.57
2275.00,81.40
2262.50,80.87
2250.00,80.03
2237.50,78.42
2225.00,75.47
2212.50,70.69
2200.00,61.76
2187.50,45.31
2175.00,24.92
2162.50,16.50
2150.00,24.48
2137.50,44.99
2125.00,61.18
2112.50,68.00
2100.00,70.81
2087.50,71.82
2075.00,71.24
2062.50,69.29
2050.00,67.68
2037.50,73.87
2025.00,74.92
2012.50,71.33
2000.00,68.45
1987.50,67.82
1975.00,62.29
1962.50,54.14
1950.00,47.50
1937.50,49.05
1925.00,56.91
1912.50,60.95
1900.00,64.78
1887.50,64.83
1875.00,64.37
1862.50,64.18
1850.00,63.80
1837.50,64.22
1825.00,62.91
1812.50,60.41
1800.00,56.92
1787.50,53.94
1775.00,52.77
1762.50,53.14
1750.00,53.63
1737.50,52.88
1725.00,51.15
1712.50,50.34
1700.00,49.68
1687.50,47.89
1675.00,46.07
1662.50,43.22
1650.00,40.44
1637.50,38.41
1625.00,36.17
1612.50,34.23
1600.00,30.96
1587.50,36.19
1575.00,39.99
1562.50,42.13
1550.00,42.73
1537.50,42.32
1525.00,41.92
1512.50,41.98
1500.00,41.69
1487.50,37.32
1475.00,34.52
1462.50,24.90
1450.00,12.07
1437.50,14.03
1425.00,9.28
1412.50,0.89
1400.00,2.36
1387.50,15.25
1375.00,22.65
1362.50,26.24
1350.00,27.08
1337.50,26.52
1325.00,22.74
1312.50,15.83
1300.00,8.83
1287.50,2.49
1275.00,0.01
1262.50,0.00
1250.00,0.01
1237.50,0.38
1225.00,0.46
1212.50,0.04
1200.00,0.01
1187.50,0.00
1175.00,0.01
1162.50,0.01
1150.00,0.00
1137.50,0.00
1125.00,0.01
1112.50,0.01
1100.00,0.01
1087.50,0.00
1075.00,0.01
1062.50,0.01
1050.00,0.00
1037.50,0.01
1025.00,0.01
1012.50,0.00
1000.00,0.00
987.50,0.03
975.00,0.80
962.50,2.21
950.00,4.34
937.50,5.58
925.00,2.30
912.50,0.28
900.00,0.29
887.50,0.01
875.00,0.01
862.50,0.00
850.00,0.02
837.50,0.01
825.00,0.01
812.50,0.01
800.00,0.01
787.50,0.01
775.00,0.01
762.50,0.00
750.00,0.11
737.50,1.83
725.00,2.49
712.50,0.72
700.00,0.11
687.50,0.13
675.00,0.93
662.50,0.79
650.00,10.35
637.50,8.78
625.00,7.40
612.50,7.58
600.00,2.44
587.50,3.12
575.00,0.98
562.50,0.61
550.00,0.40
537.50,0.27
525.00,0.15
512.50,0.11
500.00,0.05
487.50,0.07
475.00,0.08
462.50,0.05
450.00,0.07
437.50,0.10
425.00,0.03
412.50,0.05
400.00,0.28