Folder: IRIntCopy/CSVs/190606_AuNP_PDMS_1 (part 2)

File: laser-maybe_AuNP_240.csv
Created as New Dataset,Sample 161 By irlear Date Thursday, June 06 2019
cm-1,%T
4000.00,79.31
3987.50,79.86
3975.00,80.38
3962.50,80.86
3950.00,81.12
3937.50,81.37
3925.00,81.45
3912.50,81.29
3900.00,80.86
3887.50,80.49
3875.00,80.18
3862.50,79.48
3850.00,77.31
3837.50,74.03
3825.00,72.29
3812.50,71.02
3800.00,68.80
3787.50,64.94
3775.00,60.18
3762.50,57.76
3750.00,58.51
3737.50,60.68
3725.00,57.37
3712.50,52.10
3700.00,48.04
3687.50,50.72
3675.00,51.34
3662.50,48.15
3650.00,43.90
3637.50,43.24
3625.00,45.08
3612.50,44.94
3600.00,43.65
3587.50,42.62
3575.00,43.78
3562.50,44.94
3550.00,45.32
3537.50,45.14
3525.00,44.97
3512.50,45.09
3500.00,45.39
3487.50,45.79
3475.00,46.26
3462.50,46.81
3450.00,47.51
3437.50,48.28
3425.00,48.98
3412.50,49.69
3400.00,50.48
3387.50,51.28
3375.00,52.06
3362.50,52.85
3350.00,53.66
3337.50,54.66
3325.00,55.65
3312.50,56.68
3300.00,57.69
3287.50,58.45
3275.00,59.08
3262.50,59.52
3250.00,59.79
3237.50,59.97
3225.00,59.99
3212.50,60.05
3200.00,59.87
3187.50,59.12
3175.00,59.46
3162.50,58.73
3150.00,57.02
3137.50,54.22
3125.00,50.37
3112.50,47.76
3100.00,47.27
3087.50,46.94
3075.00,45.28
3062.50,40.33
3050.00,35.92
3037.50,41.65
3025.00,39.71
3012.50,33.42
3000.00,24.05
2987.50,6.85
2975.00,0.01
2962.50,0.06
2950.00,0.06
2937.50,6.41
2925.00,14.46
2912.50,6.62
2900.00,4.15
2887.50,20.67
2875.00,33.60
2862.50,41.77
2850.00,44.49
2837.50,46.08
2825.00,48.37
2812.50,47.20
2800.00,47.94
2787.50,54.44
2775.00,67.00
2762.50,73.65
2750.00,76.78
2737.50,78.73
2725.00,79.75
2712.50,79.75
2700.00,80.09
2687.50,80.16
2675.00,77.88
2662.50,75.17
2650.00,78.28
2637.50,82.32
2625.00,84.10
2612.50,85.01
2600.00,85.47
2587.50,85.74
2575.00,85.93
2562.50,86.01
2550.00,85.97
2537.50,85.77
2525.00,85.05
2512.50,83.05
2500.00,74.93
2487.50,81.49
2475.00,84.84
2462.50,85.69
2450.00,86.05
2437.50,86.19
2425.00,86.23
2412.50,86.18
2400.00,86.11
2387.50,86.01
2375.00,85.76
2362.50,85.61
2350.00,85.33
2337.50,84.95
2325.00,84.74
2312.50,84.25
2300.00,83.61
2287.50,82.58
2275.00,81.43
2262.50,80.91
2250.00,80.06
2237.50,78.47
2225.00,75.51
2212.50,70.76
2200.00,61.87
2187.50,45.49
2175.00,25.10
2162.50,16.64
2150.00,24.64
2137.50,45.17
2125.00,61.29
2112.50,68.08
2100.00,70.90
2087.50,71.89
2075.00,71.35
2062.50,69.38
2050.00,67.81
2037.50,73.95
2025.00,74.96
2012.50,71.45
2000.00,68.54
1987.50,67.92
1975.00,62.41
1962.50,54.30
1950.00,47.71
1937.50,49.25
1925.00,57.08
1912.50,61.08
1900.00,64.86
1887.50,64.97
1875.00,64.47
1862.50,64.30
1850.00,63.93
1837.50,64.30
1825.00,63.05
1812.50,60.50
1800.00,57.08
1787.50,54.09
1775.00,52.91
1762.50,53.30
1750.00,53.73
1737.50,53.05
1725.00,51.30
1712.50,50.48
1700.00,49.83
1687.50,48.01
1675.00,46.23
1662.50,43.34
1650.00,40.60
1637.50,38.54
1625.00,36.30
1612.50,34.38
1600.00,31.12
1587.50,36.36
1575.00,40.15
1562.50,42.28
1550.00,42.85
1537.50,42.46
1525.00,42.06
1512.50,42.10
1500.00,41.83
1487.50,37.47
1475.00,34.69
1462.50,25.07
1450.00,12.26
1437.50,14.21
1425.00,9.40
1412.50,0.92
1400.00,2.43
1387.50,15.38
1375.00,22.79
1362.50,26.37
1350.00,27.21
1337.50,26.63
1325.00,22.85
1312.50,15.93
1300.00,8.89
1287.50,2.52
1275.00,0.02
1262.50,0.01
1250.00,0.00
1237.50,0.38
1225.00,0.47
1212.50,0.05
1200.00,0.01
1187.50,0.01
1175.00,0.01
1162.50,0.01
1150.00,0.00
1137.50,0.00
1125.00,0.01
1112.50,0.00
1100.00,0.00
1087.50,0.00
1075.00,0.00
1062.50,0.00
1050.00,0.00
1037.50,0.01
1025.00,0.00
1012.50,0.01
1000.00,0.00
987.50,0.04
975.00,0.81
962.50,2.23
950.00,4.39
937.50,5.61
925.00,2.34
912.50,0.28
900.00,0.29
887.50,0.02
875.00,0.00
862.50,0.01
850.00,0.00
837.50,0.00
825.00,0.02
812.50,0.01
800.00,0.01
787.50,0.00
775.00,0.01
762.50,0.02
750.00,0.12
737.50,1.84
725.00,2.51
712.50,0.74
700.00,0.11
687.50,0.15
675.00,0.95
662.50,0.84
650.00,10.41
637.50,8.87
625.00,7.51
612.50,7.64
600.00,2.42
587.50,3.18
575.00,1.00
562.50,0.63
550.00,0.45
537.50,0.33
525.00,0.16
512.50,0.14
500.00,0.13
487.50,0.07
475.00,0.03
462.50,0.07
450.00,0.10
437.50,0.03
425.00,0.11
412.50,0.17
400.00,0.17